# IRS Blue-Peakup Filter
# RQExTransmission at 2.0 volts USED IN NOMINAL OPERATIONS
# 
# The first column is wavelength in microns.  They second 
# is "RQExT", which is the product of the detector's 
# responsive quantum efficiency (QE times photoconductive 
# gain) and the filter transmission.  That is, if you 
# multiply incident photons/second at some wavelength by 
# RQExT at that wavelength, then you get electrons/second 
# contributed by the incident light at that wavelength. 
# These data represent the same curve that is provided in 
# the SMART software package, and represent a revised 
# (improved) version of the peak-up filter transmission
# curve shown in Figure 7.39 of the Spitzer Observer's 
# Manual (v5.0).
#
# Retrived from https://irsa.ipac.caltech.edu/data/SPITZER/docs/files/spitzer/bluePUtrans.txt
10.0104	    1.49E-03
10.0298	    7.25E-03
10.0492	    2.02E-03
10.0687	    2.22E-03
10.0883	    -6.12E-05
10.1080	    1.32E-03
10.1277	    -6.07E-04
10.1475	    2.07E-03
10.1674	    3.22E-03
10.1874	    2.71E-03
10.2074	    2.78E-03
10.2276	    2.68E-03
10.2478	    1.15E-03
10.2681	    -1.09E-03
10.2885	    5.37E-04
10.3089	    3.57E-04
10.3294	    3.27E-03
10.3501	    2.63E-03
10.3708	    1.64E-03
10.3916	    3.03E-03
10.4124	    3.02E-03
10.4334	    1.65E-03
10.4544	    2.04E-03
10.4755	    3.78E-03
10.4967	    1.50E-03
10.5180	    2.48E-04
10.5394	    1.65E-03
10.5609	    -1.63E-03
10.5824	    -8.04E-04
10.6041	    -4.30E-04
10.6258	    -6.39E-04
10.6476	    -1.67E-03
10.6695	    -2.78E-03
10.6915	    -3.18E-03
10.7136	    -4.06E-03
10.7358	    -2.75E-03
10.7581	    -2.77E-03
10.7804	    1.29E-03
10.8029	    1.49E-03
10.8254	    3.45E-03
10.8481	    2.74E-03
10.8708	    1.19E-03
10.8937	    8.79E-04
10.9166	    -6.77E-04
10.9396	    -2.18E-03
10.9628	    -2.87E-03
10.9860	    -3.03E-03
11.0093	    -2.60E-03
11.0327	    -1.40E-03
11.0563	    3.97E-04
11.0799	    2.77E-03
11.1036	    2.92E-03
11.1274	    -7.35E-04
11.1514	    -1.13E-03
11.1754	    -1.70E-03
11.1995	    -3.18E-03
11.2238	    -2.67E-03
11.2481	    1.18E-03
11.2726	    2.11E-04
11.2971	    -2.02E-03
11.3218	    -1.12E-03
11.3466	    -3.17E-04
11.3715	    -5.89E-04
11.3965	    -1.81E-05
11.4215	    6.14E-04
11.4468	    1.07E-03
11.4721	    2.13E-03
11.4975	    2.68E-03
11.5231	    3.67E-03
11.5487	    5.11E-03
11.5745	    3.46E-03
11.6004	    1.68E-03
11.6264	    2.40E-03
11.6526	    8.59E-04
11.6788	    5.26E-04
11.7052	    4.27E-04
11.7316	    9.44E-04
11.7582	    -5.23E-03
11.7850	    -4.58E-03
11.8118	    -5.46E-03
11.8388	    -2.81E-03
11.8659	    -3.91E-03
11.8931	    1.03E-03
11.9204	    3.17E-03
11.9479	    2.19E-03
11.9755	    2.53E-03
12.0032	    3.04E-03
12.0311	    5.17E-03
12.0590	    5.60E-03
12.0871	    7.41E-03
12.1154	    2.60E-03
12.1438	    1.38E-03
12.1723	    -4.20E-03
12.2009	    -5.64E-03
12.2297	    -5.47E-03
12.2586	    -8.65E-04
12.2876	    2.35E-03
12.3168	    7.33E-03
12.3462	    8.07E-03
12.3756	    7.21E-03
12.4052	    7.20E-03
12.4350	    6.03E-03
12.4649	    4.52E-03
12.4949	    4.41E-03
12.5251	    5.98E-03
12.5554	    4.87E-03
12.5859	    7.13E-03
12.6165	    1.23E-02
12.6473	    1.64E-02
12.6782	    2.59E-02
12.7093	    3.22E-02
12.7405	    3.86E-02
12.7719	    5.19E-02
12.8034	    7.57E-02
12.8351	    1.13E-01
12.8670	    1.77E-01
12.8990	    2.28E-01
12.9311	    2.76E-01
12.9635	    3.16E-01
12.9960	    3.90E-01
13.0286	    5.06E-01
13.0614	    6.49E-01
13.0944	    8.58E-01
13.1276	    1.05E+00
13.1609	    1.28E+00
13.1944	    1.49E+00
13.2280	    1.71E+00
13.2619	    1.89E+00
13.2959	    2.00E+00
13.3300	    2.09E+00
13.3644	    2.14E+00
13.3989	    2.13E+00
13.4336	    2.10E+00
13.4685	    2.14E+00
13.5036	    2.18E+00
13.5389	    2.26E+00
13.5743	    2.34E+00
13.6099	    2.55E+00
13.6457	    2.69E+00
13.6817	    2.78E+00
13.7179	    2.80E+00
13.7543	    2.85E+00
13.7909	    2.77E+00
13.8277	    2.76E+00
13.8647	    2.77E+00
13.9018	    2.81E+00
13.9392	    2.82E+00
13.9768	    2.85E+00
14.0146	    2.85E+00
14.0525	    2.84E+00
14.0907	    2.82E+00
14.1291	    2.79E+00
14.1677	    2.75E+00
14.2065	    2.75E+00
14.2456	    2.75E+00
14.2848	    2.77E+00
14.3243	    2.77E+00
14.3640	    2.78E+00
14.4038	    2.81E+00
14.4440	    2.82E+00
14.4843	    2.78E+00
14.5249	    2.81E+00
14.5657	    2.84E+00
14.6067	    2.87E+00
14.6480	    2.89E+00
14.6895	    2.93E+00
14.7312	    2.96E+00
14.7732	    2.94E+00
14.8154	    2.94E+00
14.8578	    2.91E+00
14.9005	    2.86E+00
14.9435	    2.77E+00
14.9867	    2.71E+00
15.0301	    2.65E+00
15.0738	    2.61E+00
15.1177	    2.56E+00
15.1619	    2.50E+00
15.2064	    2.45E+00
15.2511	    2.39E+00
15.2961	    2.35E+00
15.3414	    2.32E+00
15.3869	    2.28E+00
15.4327	    2.26E+00
15.4787	    2.25E+00
15.5251	    2.27E+00
15.5717	    2.36E+00
15.6186	    2.45E+00
15.6658	    2.51E+00
15.7133	    2.58E+00
15.7610	    2.67E+00
15.8091	    2.67E+00
15.8574	    2.64E+00
15.9061	    2.61E+00
15.9550	    2.59E+00
16.0043	    2.54E+00
16.0538	    2.49E+00
16.1037	    2.46E+00
16.1538	    2.41E+00
16.2043	    2.36E+00
16.2551	    2.32E+00
16.3062	    2.29E+00
16.3577	    2.28E+00
16.4094	    2.30E+00
16.4615	    2.32E+00
16.5140	    2.33E+00
16.5667	    2.33E+00
16.6198	    2.34E+00
16.6733	    2.34E+00
16.7271	    2.34E+00
16.7812	    2.32E+00
16.8357	    2.29E+00
16.8905	    2.28E+00
16.9457	    2.27E+00
17.0013	    2.26E+00
17.0572	    2.28E+00
17.1135	    2.33E+00
17.1702	    2.35E+00
17.2272	    2.31E+00
17.2846	    2.35E+00
17.3424	    2.42E+00
17.4006	    2.43E+00
17.4592	    2.49E+00
17.5182	    2.50E+00
17.5776	    2.50E+00
17.6374	    2.49E+00
17.6975	    2.38E+00
17.7582	    2.28E+00
17.8192	    2.24E+00
17.8806	    2.22E+00
17.9425	    2.23E+00
18.0048	    2.21E+00
18.0675	    2.18E+00
18.1307	    2.19E+00
18.1943	    2.24E+00
18.2584	    2.21E+00
18.3229	    2.19E+00
18.3879	    2.25E+00
18.4533	    2.21E+00
18.5192	    2.08E+00
18.5856	    1.88E+00
18.6525	    1.57E+00
18.7198	    1.18E+00
18.7876	    8.01E-01
18.8559	    5.00E-01
18.9248	    2.82E-01
18.9941	    1.66E-01
19.0639	    9.65E-02
19.1343	    6.02E-02
19.2051	    3.90E-02
19.2765	    2.73E-02
19.3485	    1.51E-02
19.4209	    5.71E-03
19.4939	    -2.67E-04
19.5675	    -4.07E-03
19.6416	    2.21E-03
19.7163	    7.94E-03
19.7916	    1.03E-02
19.8674	    1.07E-02
19.9438	    9.76E-03
20.0208	    4.96E-03
20.0984	    -1.66E-04
20.1766	    -1.66E-03
20.2554	    3.70E-05
20.3348	    -9.34E-04
20.4149	    -1.05E-03
20.4956	    -2.97E-03
20.5769	    -2.07E-03
20.6589	    1.43E-03
20.7416	    3.44E-03
20.8248	    4.68E-03
20.9088	    1.07E-02
20.9935	    1.08E-02
21.0788	    5.85E-03
21.1648	    5.71E-03
21.2516	    3.95E-03
21.3390	    1.08E-03
21.4272	    5.75E-04
21.5161	    2.35E-04
21.6058	    -7.57E-04
21.6962	    -7.69E-04
21.7873	    -1.29E-03
21.8793	    -2.91E-03
21.9720	    -5.58E-03
22.0655	    -7.01E-03
22.1598	    -5.17E-03
22.2549	    -2.21E-03
22.3508	    -6.82E-04
22.4475	    2.93E-03
22.5452	    5.14E-03
22.6436	    3.85E-03
22.7429	    3.10E-04
22.8431	    7.19E-04
22.9442	    6.13E-04
23.0461	    -2.83E-04
23.1491	    -9.37E-04
23.2528	    -4.08E-03
23.3576	    -5.13E-03
23.4633	    -6.74E-03
23.5700	    -5.97E-03
23.6775	    -5.90E-03
23.7862	    -1.90E-03
23.8958	    -2.67E-04
24.0064	    -2.41E-03
24.1181	    4.88E-04
24.2308	    -1.30E-03
24.3445	    -1.79E-04
24.4594	    -2.82E-04
24.5753	    3.67E-03
24.6923	    -1.27E-03
24.8104	    -5.23E-04
24.9298	    -7.23E-04
25.0502	    -4.83E-04
25.1718	    -7.74E-04
25.2946	    1.29E-03
25.4185	    3.51E-03
25.5438	    4.86E-03
25.6702	    3.07E-03
25.7979	    4.08E-03
25.9269	    1.86E-03
26.0572	    -7.00E-05
26.1888	    2.48E-03
26.3217	    -4.46E-03
26.4560	    -3.97E-03
26.5917	    -1.78E-03
26.7288	    2.98E-03
26.8673	    8.26E-03
27.0072	    3.01E-02
27.1486	    5.58E-02
27.2915	    9.16E-02
27.4359	    1.27E-01
27.5818	    1.52E-01
27.7293	    1.59E-01
27.8784	    1.46E-01
28.0291	    1.20E-01
28.1814	    8.79E-02
28.3354	    5.97E-02
28.4912	    3.79E-02
28.6485	    2.27E-02
28.8077	    1.37E-02
28.9686	    1.01E-02
29.1313	    1.09E-02
29.2960	    1.38E-02
29.4624	    2.27E-02
29.6308	    3.37E-02
29.8010	    4.15E-02
29.9733	    4.01E-02
30.1475	    3.59E-02
30.3239	    2.80E-02
30.5022	    1.80E-02
30.6828	    9.93E-03
30.8653	    5.86E-03
31.0502	    3.67E-03
31.2372	    2.51E-03
31.4266	    2.01E-03
31.6182	    1.79E-03
31.8122	    1.62E-03
32.0085	    1.38E-03
32.2074	    1.15E-03
32.4086	    1.06E-03
32.6125	    1.07E-03
32.8188	    1.06E-03
33.0279	    8.80E-04
33.2396	    7.00E-04
33.4541	    5.65E-04
33.6713	    4.97E-04
33.8914	    3.87E-04
34.1143	    2.34E-04
34.3403	    1.04E-04
34.5692	    2.10E-05
34.8013	    -3.61E-05
35.0363	    -7.67E-05
