# Old IRAC 1 spectral response file.  

# Extracted from:
# http://irsa.ipac.caltech.edu/data/SPITZER/docs/irac/calibrationfiles/spectralresponse/irac_tr1_2004-08-09.dat

# wavel (um)  response
 2.965        0.000784
 2.967        0.000787
 2.968        0.000880
 2.970        0.000321
 2.972        0.000481
 2.973        0.000274
 2.975        0.000565
 2.977        0.000795
 2.978        0.000871
 2.980        0.000936
 2.982        0.001030
 2.984        0.001017
 2.985        0.000870
 2.987        0.000688
 2.989        0.000624
 2.990        0.000787
 2.992        0.001013
 2.994        0.001099
 2.996        0.001060
 2.997        0.000868
 2.999        0.000469
 3.001        0.000897
 3.003        0.000631
 3.004        0.000165
 3.006        0.000044
 3.008        0.000430
 3.010        0.000460
 3.011        0.000312
 3.013        0.000517
 3.015        0.000246
 3.017        0.000469
 3.018        0.000522
 3.020        0.000474
 3.022        0.000413
 3.024        0.000401
 3.025        0.000475
 3.027        0.000454
 3.029        0.000428
 3.031        0.000534
 3.032        0.000632
 3.034        0.000557
 3.036        0.000355
 3.038        0.000224
 3.040        0.000294
 3.041        0.000336
 3.043        0.000306
 3.045        0.000187
 3.047        0.000517
 3.048        0.000431
 3.050        0.000318
 3.052        0.000246
 3.054        0.000289
 3.056        0.000423
 3.057        0.000531
 3.059        0.000503
 3.061        0.000327
 3.063        0.000404
 3.065        0.000576
 3.067        0.000584
 3.068        0.000591
 3.070        0.000547
 3.072        0.000571
 3.074        0.000387
 3.076        0.000415
 3.077        0.000343
 3.079        0.000398
 3.081        0.000302
 3.083        0.000279
 3.085        0.000190
 3.087        0.000147
 3.088        0.000185
 3.090        0.000278
 3.092        0.000336
 3.094        0.000396
 3.096        0.000187
 3.098        0.000212
 3.100        0.000280
 3.101        0.000359
 3.103        0.000416
 3.105        0.000553
 3.107        0.000824
 3.109        0.001101
 3.111        0.001228
 3.113        0.001298
 3.114        0.001477
 3.116        0.001741
 3.118        0.001988
 3.120        0.002217
 3.122        0.002553
 3.124        0.003078
 3.126        0.003610
 3.128        0.003968
 3.129        0.004263
 3.131        0.004708
 3.133        0.005426
 3.135        0.006397
 3.137        0.007535
 3.139        0.008841
 3.141        0.010420
 3.143        0.012250
 3.145        0.014170
 3.147        0.016290
 3.148        0.018850
 3.150        0.022210
 3.152        0.026530
 3.154        0.031590
 3.156        0.037510
 3.158        0.044490
 3.160        0.052640
 3.162        0.062080
 3.164        0.072930
 3.166        0.085920
 3.168        0.100500
 3.170        0.116200
 3.172        0.134300
 3.173        0.153900
 3.175        0.174200
 3.177        0.195600
 3.179        0.217800
 3.181        0.238700
 3.183        0.258400
 3.185        0.278700
 3.187        0.297100
 3.189        0.312300
 3.191        0.326900
 3.193        0.339900
 3.195        0.349700
 3.197        0.357000
 3.199        0.363300
 3.201        0.367100
 3.203        0.367700
 3.205        0.368300
 3.207        0.368800
 3.209        0.367300
 3.211        0.365400
 3.213        0.362500
 3.215        0.359000
 3.217        0.356100
 3.219        0.353900
 3.221        0.351700
 3.223        0.347500
 3.225        0.344300
 3.227        0.343400
 3.229        0.341000
 3.231        0.339300
 3.233        0.338900
 3.235        0.338500
 3.237        0.339500
 3.239        0.340400
 3.241        0.341100
 3.243        0.342400
 3.245        0.344500
 3.247        0.348300
 3.249        0.351100
 3.251        0.353700
 3.253        0.357800
 3.255        0.361600
 3.257        0.365500
 3.259        0.370000
 3.261        0.373800
 3.263        0.377700
 3.265        0.381700
 3.267        0.384900
 3.270        0.388700
 3.272        0.393300
 3.274        0.396100
 3.276        0.399200
 3.278        0.402300
 3.280        0.403500
 3.282        0.405900
 3.284        0.407300
 3.286        0.406900
 3.288        0.407600
 3.290        0.408700
 3.292        0.409600
 3.294        0.409000
 3.297        0.408500
 3.299        0.408400
 3.301        0.406100
 3.303        0.405600
 3.305        0.405900
 3.307        0.403400
 3.309        0.402600
 3.311        0.402300
 3.313        0.401200
 3.316        0.401000
 3.318        0.399300
 3.320        0.396700
 3.322        0.396400
 3.324        0.397100
 3.326        0.397300
 3.328        0.397300
 3.330        0.396400
 3.333        0.396600
 3.335        0.398200
 3.337        0.398300
 3.339        0.398100
 3.341        0.398800
 3.343        0.398600
 3.345        0.398400
 3.348        0.398700
 3.350        0.399300
 3.352        0.399200
 3.354        0.398800
 3.356        0.398500
 3.358        0.397000
 3.361        0.397000
 3.363        0.397000
 3.365        0.395800
 3.367        0.396400
 3.369        0.395400
 3.372        0.392100
 3.374        0.393100
 3.376        0.394400
 3.378        0.393500
 3.380        0.393700
 3.383        0.393800
 3.385        0.393900
 3.387        0.395900
 3.389        0.397700
 3.391        0.400100
 3.394        0.402300
 3.396        0.403800
 3.398        0.407600
 3.400        0.410400
 3.403        0.412300
 3.405        0.416100
 3.407        0.418100
 3.409        0.419500
 3.411        0.423100
 3.414        0.425700
 3.416        0.425400
 3.418        0.426200
 3.420        0.428600
 3.423        0.429500
 3.425        0.430300
 3.427        0.430900
 3.430        0.428200
 3.432        0.425600
 3.434        0.425600
 3.436        0.424700
 3.439        0.422100
 3.441        0.419800
 3.443        0.417300
 3.445        0.415100
 3.448        0.413400
 3.450        0.411000
 3.452        0.409600
 3.455        0.408400
 3.457        0.406500
 3.459        0.406000
 3.462        0.405900
 3.464        0.405900
 3.466        0.406600
 3.469        0.406600
 3.471        0.406400
 3.473        0.407500
 3.476        0.409500
 3.478        0.411400
 3.480        0.413800
 3.483        0.416900
 3.485        0.419100
 3.487        0.422000
 3.490        0.425200
 3.492        0.427000
 3.494        0.429800
 3.497        0.433100
 3.499        0.435800
 3.501        0.439300
 3.504        0.441500
 3.506        0.441500
 3.508        0.442800
 3.511        0.446400
 3.513        0.449000
 3.516        0.450500
 3.518        0.451900
 3.520        0.452600
 3.523        0.453100
 3.525        0.453800
 3.528        0.454100
 3.530        0.455000
 3.532        0.455900
 3.535        0.455100
 3.537        0.453000
 3.540        0.452000
 3.542        0.452200
 3.544        0.451100
 3.547        0.449900
 3.549        0.449800
 3.552        0.449100
 3.554        0.448100
 3.557        0.446700
 3.559        0.445400
 3.561        0.445500
 3.564        0.445500
 3.566        0.445100
 3.569        0.443800
 3.571        0.442400
 3.574        0.441500
 3.576        0.441500
 3.579        0.442300
 3.581        0.442000
 3.584        0.441500
 3.586        0.442500
 3.589        0.444000
 3.591        0.445200
 3.594        0.446200
 3.596        0.447000
 3.599        0.447800
 3.601        0.447600
 3.604        0.447400
 3.606        0.447800
 3.609        0.447500
 3.611        0.448500
 3.614        0.449900
 3.616        0.449400
 3.619        0.449200
 3.621        0.448900
 3.624        0.448900
 3.626        0.449300
 3.629        0.447900
 3.631        0.446100
 3.634        0.445000
 3.636        0.443500
 3.639        0.442200
 3.641        0.441400
 3.644        0.439300
 3.647        0.437300
 3.649        0.436500
 3.652        0.434400
 3.654        0.432800
 3.657        0.433100
 3.659        0.431200
 3.662        0.428800
 3.665        0.428200
 3.667        0.427900
 3.670        0.428000
 3.672        0.428900
 3.675        0.428700
 3.678        0.427900
 3.680        0.428900
 3.683        0.431500
 3.685        0.432600
 3.688        0.432900
 3.691        0.434800
 3.693        0.437300
 3.696        0.439500
 3.699        0.441400
 3.701        0.443100
 3.704        0.444300
 3.707        0.446300
 3.709        0.450000
 3.712        0.453400
 3.715        0.455000
 3.717        0.455600
 3.720        0.456200
 3.723        0.457200
 3.725        0.458900
 3.728        0.460800
 3.731        0.461700
 3.733        0.461900
 3.736        0.462800
 3.739        0.463300
 3.741        0.463900
 3.744        0.464600
 3.747        0.464300
 3.749        0.463800
 3.752        0.462900
 3.755        0.462800
 3.758        0.463200
 3.760        0.461300
 3.763        0.459100
 3.766        0.458300
 3.769        0.458000
 3.771        0.456800
 3.774        0.455000
 3.777        0.454600
 3.779        0.454100
 3.782        0.452400
 3.785        0.450600
 3.788        0.450400
 3.791        0.450500
 3.793        0.449700
 3.796        0.449900
 3.799        0.449500
 3.802        0.448100
 3.804        0.449200
 3.807        0.449700
 3.810        0.447300
 3.813        0.446500
 3.816        0.446500
 3.818        0.445600
 3.821        0.444600
 3.824        0.442600
 3.827        0.440600
 3.830        0.440300
 3.833        0.438800
 3.835        0.436100
 3.838        0.435100
 3.841        0.433000
 3.844        0.429100
 3.847        0.426800
 3.850        0.424800
 3.853        0.422100
 3.855        0.420600
 3.858        0.419100
 3.861        0.417900
 3.864        0.418300
 3.867        0.419600
 3.870        0.421300
 3.873        0.423200
 3.876        0.425600
 3.878        0.428100
 3.881        0.430800
 3.884        0.433400
 3.887        0.436600
 3.890        0.439000
 3.893        0.440000
 3.896        0.438900
 3.899        0.435200
 3.902        0.429700
 3.905        0.419800
 3.908        0.404800
 3.911        0.386800
 3.914        0.363200
 3.917        0.334300
 3.919        0.301500
 3.922        0.265700
 3.925        0.229200
 3.928        0.193700
 3.931        0.160500
 3.934        0.130100
 3.937        0.103700
 3.940        0.081700
 3.943        0.063520
 3.946        0.049190
 3.949        0.038050
 3.952        0.029310
 3.955        0.022600
 3.958        0.017530
 3.961        0.013640
 3.964        0.010520
 3.967        0.008122
 3.970        0.006407
 3.974        0.005109
 3.977        0.004018
 3.980        0.003124
 3.983        0.002457
 3.986        0.002025
 3.989        0.001769
 3.992        0.001542
 3.995        0.001236
 3.998        0.000924
 4.001        0.000759
 4.004        0.000696
 4.007        0.000577
 4.010        0.000419
 4.014        0.000372
 4.017        0.000442
 4.020        0.000476
 4.023        0.000428
 4.026        0.000417
 4.029        0.000479
 4.032        0.000507
 4.035        0.000467
 4.039        0.000429
 4.042        0.000421
 4.045        0.000437
 4.048        0.000450
 4.051        0.000449
 4.054        0.000473
 4.057        0.000503
 4.061        0.000490
 4.064        0.000440
 4.067        0.000424
 4.070        0.000446
 4.073        0.000412
 4.077        0.000302
 4.080        0.000235
 4.083        0.000246
 4.086        0.000229
 4.089        0.000200
 4.093        0.000228
 4.096        0.000257
 4.099        0.000208
 4.102        0.000130
 4.106        0.000110
 4.109        0.000169
 4.112        0.000255
 4.115        0.000298
 4.119        0.000292
 4.122        0.000243
 4.125        0.000182
 4.129        0.000181
 4.132        0.000192
 4.135        0.000164
 4.138        0.000315
 4.142        0.000363
 4.145        0.000315
 4.148        0.000235
 4.152        0.000326
 4.155        0.000180
 4.158        0.000146
 4.162        0.000116
 4.165        0.000182
